# Probe[Ohm] Geh√§use[Ohm] I[mA]  U[V]   t[min]
                                        
  22.7       22.7         150    16     0                                   
  27.0       28.1         151.3  15.85  5.36                                   
  31.3       31.6         152.3  15.99  11.26                                                
  35.5       34.4         152.9  16.07  18.03                            
  39.7       40.1         153.3  16.13  24.5                               
  43.8       44.2         153.5  16.17  31.34                              
  48.0       48.4         153.8  16.21  39.00                                    
  52.0       52.2         153.9  16.24  46.02                                       
  56.1       56.1         154.1  16.26  53.41                                           
  60.2       60.3         154.2  16.28  61.27                                      
  64.2       64.1         154.3  16.29  69.15                                        
  68.3       67.4         154.4  16.30  78.32                                                
  72.3       75.0         154.5  16.31  85.26                                         
  76.3       76.3         154.5  16.32  92.50                                                    
  80.3       78.5         154.5  16.32  101.40                                                        
  84.3       90.1         154.6  16.32  108.38                             
  88.2       88.2         154.7  16.32  115.17                                        
  92.1       92.2         154.6  16.32  123.38
  96.0       96.3         154.7  16.32  141.13                                     
  100.0      99.6         154.6  16.32  142.45                                          
  104.0      103.8        154.7  16.31  149.53                                        
  107.8      107.9        154.7  16.31  158.18                                                 
  111.7      111.5        154.8  16.31  160.55                                           